Folder: importtool/samples

Note: samples/CasaXPS_report.TXT
z:\sample116.vms
Si 2p
	Characteristic Energy eV	1486.6	Acquisition Time s	3
KE_Si 2p	BE_Si 2p	CPS_Si 2p	Si 2p_1_Si 2p	Si 2p_2_Si 2p	Background_Si 2p	Envelope_Si 2p
1376.69	109.91	165.333	165.333	165.333	165.333	165.333
1376.72	109.885	172	172	172	172	172
1376.74	109.86	181.333	181.333	181.333	181.333	181.333
1376.77	109.835	164	164	164	164	164
1376.79	109.81	163.667	163.667	163.667	163.667	163.667
1376.82	109.785	171.667	171.667	171.667	171.667	171.667
1376.84	109.76	167	167	167	167	167
1376.87	109.735	159.333	159.333	159.333	159.333	159.333
1376.89	109.71	146.667	146.667	146.667	146.667	146.667
1376.92	109.685	165.333	165.333	165.333	165.333	165.333
1376.94	109.66	166	166	166	166	166
1376.97	109.635	167.667	167.667	167.667	167.667	167.667
1376.99	109.61	161.333	161.333	161.333	161.333	161.333
1377.02	109.585	170	170	170	170	170
1377.04	109.56	151.333	151.333	151.333	151.333	151.333
1377.07	109.535	157	157	157	157	157
1377.09	109.51	167.333	167.333	167.333	167.333	167.333
1377.12	109.485	159.333	159.333	159.333	159.333	159.333
1377.14	109.46	167.333	167.333	167.333	167.333	167.333
1377.17	109.435	162	162	162	162	162
1377.19	109.41	157	157	157	157	157
1377.22	109.385	163	163	163	163	163
1377.24	109.36	155	155	155	155	155
1377.27	109.335	158.667	158.667	158.667	158.667	158.667
1377.29	109.31	158.667	158.667	158.667	158.667	158.667
1377.32	109.285	165.667	165.667	165.667	165.667	165.667
1377.34	109.26	148	148	148	148	148
1377.37	109.235	161	161	161	161	161
1377.39	109.21	159	159	159	159	159
1377.42	109.185	148.667	148.667	148.667	148.667	148.667
1377.44	109.16	152	152	152	152	152
1377.47	109.135	162	162	162	162	162
1377.49	109.11	162.667	162.667	162.667	162.667	162.667
1377.52	109.085	150.667	150.667	150.667	150.667	150.667
1377.54	109.06	144.667	144.667	144.667	144.667	144.667
1377.57	109.035	151	151	151	151	151
1377.59	109.01	149.333	149.333	149.333	149.333	149.333
1377.62	108.985	140.667	140.667	140.667	140.667	140.667
1377.64	108.96	151.667	151.667	151.667	151.667	151.667
1377.67	108.935	154	154	154	154	154
1377.69	108.91	156	156	156	156	156
1377.72	108.885	174	174	174	174	174
1377.74	108.86	155	155	155	155	155
1377.77	108.835	152	152	152	152	152
1377.79	108.81	162	162	162	162	162
1377.82	108.785	162.667	162.667	162.667	162.667	162.667
1377.84	108.76	151	151	151	151	151
1377.87	108.735	150.667	150.667	150.667	150.667	150.667
1377.89	108.71	160.333	160.333	160.333	160.333	160.333
1377.92	108.685	142.667	142.667	142.667	142.667	142.667
1377.94	108.66	146.333	146.333	146.333	146.333	146.333
1377.97	108.635	141	141	141	141	141
1377.99	108.61	153	153	153	153	153
1378.02	108.585	148	148	148	148	148
1378.04	108.56	148.667	148.667	148.667	148.667	148.667
1378.07	108.535	144.333	144.333	144.333	144.333	144.333
1378.09	108.51	139.667	139.667	139.667	139.667	139.667
1378.12	108.485	151	151	151	151	151
1378.14	108.46	163	163	163	163	163
1378.17	108.435	150	150	150	150	150
1378.19	108.41	153.333	153.333	153.333	153.333	153.333
1378.22	108.385	155.333	155.33

Note: samples/Shimadzu_UVProbe_TXT.txt
"Dataset 163336 average 1-40 - C:\Program Files\Shimadzu\UVProbe\Data\sample.spc"
"Wavelength nm."	"R%"
240.00	37.589
242.00	38.627
244.00	39.716
246.00	41.096
248.00	41.924
250.00	43.267
252.00	44.097
254.00	44.865
256.00	45.761
258.00	46.802
260.00	47.348
262.00	48.060
264.00	48.586
266.00	49.346
268.00	49.970
270.00	50.384
272.00	51.225
274.00	51.262
276.00	52.068
278.00	52.823
280.00	52.856
282.00	53.380
284.00	54.254
286.00	55.039
288.00	55.586
290.00	56.242
292.00	57.112
294.00	57.121
296.00	57.403
298.00	57.753
300.00	57.397
302.00	57.818
304.00	57.941
306.00	57.593
308.00	57.972
310.00	58.186
312.00	58.214
314.00	58.594
316.00	58.548
318.00	58.159
320.00	58.595
322.00	59.025
324.00	58.738
326.00	59.044
328.00	59.404
330.00	59.736
332.00	59.805
334.00	60.167
336.00	60.613
338.00	61.007
340.00	61.007
342.00	61.503
344.00	61.827
346.00	62.066
348.00	62.573
350.00	63.252
352.00	63.851
354.00	64.360
356.00	65.303
358.00	65.553
360.00	66.744
362.00	67.858
364.00	68.756
366.00	69.451
368.00	70.275
370.00	70.587
372.00	71.436
374.00	71.185
376.00	71.251
378.00	71.437
380.00	71.202
382.00	71.424
384.00	71.061
386.00	70.895
388.00	70.645
390.00	70.703
392.00	70.476
394.00	70.282
396.00	70.094
398.00	70.085
400.00	69.943
402.00	70.014
404.00	69.815
406.00	69.826
408.00	69.600
410.00	69.383
412.00	69.209
414.00	69.162
416.00	69.105
418.00	69.077
420.00	68.849
422.00	68.597
424.00	68.663
426.00	68.536
428.00	68.323
430.00	68.082
432.00	68.068
434.00	67.792
436.00	67.671
438.00	67.588
440.00	67.387
442.00	67.557
444.00	67.374
446.00	67.064
448.00	67.080
450.00	66.887
452.00	66.653
454.00	66.528
456.00	66.549
458.00	66.401
460.00	66.376
462.00	66.184
464.00	66.171
466.00	65.991
468.00	65.928
470.00	65.916
472.00	65.870
474.00	65.922
476.00	65.785
478.00	65.604
480.00	65.747
482.00	65.765
484.00	65.777
486.00	65.829
488.00	65.826
490.00	65.660
492.00	65.945
494.00	65.886
496.00	66.044
498.00	66.177
500.00	66.404
502.00	66.458
504.00	66.710
506.00	66.775
508.00	66.829
510.00	67.393
512.00	67.175
514.00	67.428
516.00	67.665
518.00	67.807
520.00	67.988
522.00	68.078
524.00	68.448
526.00	68.506
528.00	68.844
530.00	68.800
532.00	69.200
534.00	69.322
536.00	69.499
538.00	69.777
540.00	69.792
542.00	70.056
544.00	70.048
546.00	70.288
548.00	70.522
550.00	70.742
552.00	70.732
554.00	71.066
556.00	71.265
558.00	71.324
560.00	71.573
562.00	71.718
564.00	71.796
566.00	71.927
568.00	72.082
570.00	71.977
572.00	71.956
574.00	72.104
576.00	72.267
578.00	72.451
580.00	72.679
582.00	72.915
584.00	73.204
586.00	73.320
588.00	73.641
590.00	73.854
592.00	73.807
594.00	73.890
596.00	74.134
598.00	74.236
600.00	74.274
602.00	74.604
604.00	74.512
606.00	74.831
608.00	74.984
610.00	74.949
612.00	75.203
614.00	75.154
616.00	75.376
618.00	75.623
620.00	75.615
622.00	75.810
624.00	75.961
626.00	76.109
628.00	76.115
630.00	76.254
632.00	76.412
634.00	76.458
636.00	76.692
638.00	76.817
640.00	76.676
642.00	76.942
644.00	77.248
646.00	77.204
648.00	77.207
650.00	77.132
652.00	77.76

Note: README.md
import tool for IgorPro
=======================

General import tool for IgorPro for importing data files from different hardware/software


Supported formats:
  - SpecsLab2 *.xml and *.xy
  - SpecsLab1 *.exp
  - Kratos Vision *.dset
  - Gwyddion 2.x *.gwy
  - Omicron SCALA *.par
  - Nanotec WSxM *.stp
  - Veeco *.hdf
  - Spectra *.#

Installation:

Copy the "Igor Procedures" folder to:
  - Mac OS X: 	/Users/<user>/Documents/WaveMetrics/Igor Pro 6 User Files/
  - Windows: 	<My Documents>\WaveMetrics\Igor Pro 6 User Files\

File: Diffrac-ATuxd.UXD
; C:\DIFFDAT1\MK\Auftragsmessungen\Schmeiﬂer\Polymer Glas\2010_12_01\P3HTrr101130_1.raw(Diffrac Plus V1.01 file) converted by XCH V1.0
_FILEVERSION=2
_SAMPLE='P3HTrr101130'
_SITE='Deutschland'
_USER='LS Leichtbaukeramik'
_ATTACHMENTS_CODE=0
_GONIOMETER_RADIUS=250
_FIXED_DIVSLIT=0.600000
_FIXED_SAMPLESLIT=0.000000
_FIXED_DETSLIT=10.5
_MONOCHROMATOR=0
; None
_THIN_FILM='N'
_BETA_FILTER='Y'
_FIXED_ANTISLIT=6.760000
_ANALYZER_CODE=0
; None
_DATEMEASURED='01-Dec-2010 11:00:32'
_WL_UNIT='A'
_WL1=1.540600
_WL2=1.544390
_WL3=1.392220
_WLRATIO=0.500000
_ANODE='Cu'
; (Data for Range number 1)
_DRIVE='2THETA'
_STEPTIME=0.500000
_STEPSIZE=0.020000
_STEPMODE='C'
_START=5.000000
_THETA=3.000000
_2THETA=5.000000
_KHI=0.000000
_PHI=0.000000
_X=0.000000
_Y=0.000000
_Z=0.000000
_DIVERGENCE=0.499000
_ANTISCATTER=0.499000
_DETECTOR=1
; S.C.
_HV=671
_GAIN=80
_LLD=0.600000
_ULD=1.800000
_DETECTORSLIT='unkn'
_AUX1=0.000000
_AUX2=0.000000
_AUX3=0.000000
_TIMESTARTED=19
_TEMP_RATE=-1.000000
_TEMP_DELAY=-1.000000
_KV=40
_MA=40
_RANGE_WL=1.540600
_3DPLANE=0
_2THETACOUNTS
5.0000	2552
5.3000	4912
5.6000	3274
5.9000	1662
6.2000	833
6.5000	706
6.8000	598
7.1000	489
7.4000	526
7.7000	481
8.0000	526
8.3000	482
8.6000	514
8.9000	529
9.2000	594
9.5000	591
9.8000	594
10.1000	566
10.4000	607
10.7000	717
11.0000	615
11.3000	449
11.6000	369
11.9000	336
12.2000	289
12.5000	283
12.8000	264
13.1000	265
13.4000	240
13.7000	278
14.0000	243
14.3000	272
14.6000	296
14.9000	295
15.2000	324
15.5000	321
15.8000	344
16.1000	413
16.4000	368
16.7000	335
17.0000	310
17.3000	296
17.6000	290
17.9000	275
18.2000	261
18.5000	270
18.8000	285
19.1000	315
19.4000	294
19.7000	316
20.0000	289
20.3000	286
20.6000	295
20.9000	288
21.2000	320
21.5000	324
21.8000	292
22.1000	339
22.4000	308
22.7000	300
23.0000	329
23.3000	331
23.6000	311
23.9000	320
24.2000	291
24.5000	286
24.8000	279
25.1000	316
25.4000	305
25.7000	319
26.0000	290
26.3000	308
26.6000	289
26.9000	280
27.2000	270
27.5000	302
27.8000	251
28.1000	235
28.4000	253
28.7000	237
29.0000	222
29.3000	273
29.6000	236
29.9000	246
30.2000	287
30.5000	381
30.8000	251
31.1000	214
31.4000	193
31.7000	210
32.0000	227
32.3000	166
32.6000	197
32.9000	215
33.2000	156
33.5000	161
33.8000	186
34.1000	166
34.4000	169
34.7000	139
35.0000	176
35.3000	192
35.6000	181
35.9000	151
36.2000	132
36.5000	119
36.8000	117
37.1000	127
37.4000	149
37.7000	111
38.0000	129
38.3000	125
38.6000	128
38.9000	120
39.2000	138
39.5000	121
39.8000	97
40.1000	108
40.4000	127
40.7000	122
41.0000	98
41.3000	119
41.6000	123
41.9000	98
42.2000	108
42.5000	117
42.8000	111
43.1000	112
43.4000	97
43.7000	120
44.0000	96
44.3000	99
44.6000	111
44.9000	117
45.2000	80
45.5000	104
45.8000	94
46.1000	110
46.4000	81
46.7000	107
47.0000	105
47.3000	90
47.6000	81
47.9000	106
48.2000	75
48.5000	86
48.8000	96
49.1000	91
49.4000	62
49.7000	83
50.0000	82
50.3000	97
50.6000	98
50.9000	102
51.2000	86
51.5000	79
51.8000	88
52.1000	76
52.4000	84
52.7000	80
53.0000	71
53.3000	78
53.6000	77
53.9000	76
54.2000	90
54.5000	75
54.8000	63
55.1000	63
55.4000	85
55.7000	65
56.0000	61
56.3000	58
56.6000	75
56.9000	64
57.2000	66
57.5000	76
57.8000	77
58.1000	75
58.4000	76
58.7000	74
59.0000	66
59.3000	58
59.6000	67
59.9000	79
60.2000	73
60.5000	89
60.8000	65
61.1000	64
61.4000	56
61.7000	66
62.0000	67
62.3000	54
62.6000	45
62.9000	63
63.2000	49
63.5000	52
63.8000	60
64.1000	68
64.4000	64
64.7000	58
65.0000	71
65.3000	56
65.6000	56
65.9000	51
66.2000	48
66.5000	49
66.8000	59
67.1000	52
67.4000	51
67.7000	40
68.0000	36
68.3000	45
68.6000	49
68.9000	54
69.2000	48
69.5000	57
69.8000	34
70.1000	53
70.4000	47
70.7000	48
71.0000	45
71.3000	44
71.6000	37
71.9000	36
72.2000	44
72.5000	47
72.8000	43
73.1000	42
73.4000	41
73.7000	36
74.0000	46
74.3000	41
74.6000	36
74.9000	42
75.2000	42
75.5000	23
75.8000	37
76.1000	31
76.4000	41
76.7000	34
77.0000	27
77.3000	35
77.6000	27
77.9000	34
78.2000	30
78.5000	33
78.8000	32
79.1000	28
79.4000	36
79.7000	23
80.0000	26
80.3000	32
80.6000	20
80.9000	30
81.2000	47
81.5000	31
81.8000	20
82.1000	28
82.4000	28
82.7000	26
83.0000	34
83.3000	34
83.6000	28
83.9000	22
84.2000	28
84.5000	21
84.8000	31
85.1000	37
85.4000	29
85.7000	27
86.0000	24
86.3000	21
86.6000	25
86.9000	35
87.2000	18
87.5000	19
87.8000	17
88.1000	26
88.4000	30
88.7000	32
89.0000	19
89.3000	23
89.6000	22
89.9000	24
90.0000	22